AccX,AccY,AccZ,GyroX,GyroY,GyroZ
-0.72,-0.61,0.1,-26.3,-72.33,4.33
-0.59,-0.71,0.51,-25.71,86.69,-48.63
-0.67,-1.05,-0.06,-50.78,16.37,-85.23
-0.63,-0.82,0,-64.19,35.83,-84.36
-0.32,-0.72,-0.2,-18.37,-67.19,-96.94
-0.22,-1.05,-0.11,5.36,-35.97,-47.06
-0.17,-1.03,0.2,2.59,-30.22,-93.61
-0.18,-0.72,0.43,-9.5,-42.55,-2.26
-0.18,-0.86,0.12,-7.15,-29.97,-2.1
-0.22,-0.88,0.04,-11.88,-14.48,4.71
-0.36,-0.92,0.14,-25.54,-42.3,4.9
-0.39,-1.04,0.17,-26.72,-42.54,2.53
-0.41,-1.13,0.14,-22.84,-34.92,7.71
-0.41,-1.26,0.17,-13.45,-2.15,22.47
-0.26,-0.64,0.16,33.67,23.14,29.35
-0.27,-0.7,-0.11,5.35,-78.47,46.6
-0.1,-1.15,0.09,-27.23,-10.79,33.45
-0.36,-0.82,0.13,7.6,-0.34,-13.8
-0.24,-0.64,-0.14,33.43,-68.82,16.22
-0.16,-0.84,-0.06,-46.44,-46.23,9.46
-0.36,-0.95,0.14,-4.46,-21.37,-14.37
-0.45,-0.95,0.08,12.7,-25.43,-22.98
-0.4,-1.07,0.12,-28.42,-63.25,8.23
-0.32,-1.26,0.1,-11.74,-16.27,-16.81
-0.37,-0.81,-0.08,-15.08,-3.02,-21.79
-0.19,-0.9,0.11,-3.97,-43.78,38.19
-0.1,-1.11,0.07,2.51,-7.12,2.42
-0.36,-0.97,0.18,-0.5,42.55,-26.93
-0.42,-0.75,0,3.09,-32.92,-0.65
-0.17,-0.8,-0.02,-6.99,-31.33,13.31
-0.26,-0.82,0.07,-31.68,8.88,-1.24
-0.42,-1.04,0.09,-39.97,-0.98,5.88
-0.31,-1.27,0.2,-41.22,-58.35,14.16
-0.19,-1.22,0.25,-18.42,-50.08,2.7
-0.21,-0.6,0.14,16.46,2.52,-3.3
-0.22,-1.01,-0.12,-16.41,-63.5,37.32
-0.19,-0.94,0.1,-12.97,-61.24,-17.84
-0.4,-0.77,0.01,-8.55,-72.57,-6.23
-0.32,-0.8,-0.03,-11.45,-54.05,11.6
-0.39,-0.93,-0.01,-18,-44.94,-5.46
-0.46,-0.91,0.01,-11.41,-45.95,-9.23
-0.51,-0.93,-0.03,-3.01,-26.89,8.34
-0.42,-1.18,-0.05,-16.05,-76.44,11.9
-0.42,-1.01,0.12,0.54,-37.69,-22.13
-0.33,-0.78,0.08,-8.36,-48.05,21.97
-0.05,-1.1,0.12,-33.05,-41.2,12.9
-0.26,-0.9,0.29,-4.71,65.34,-26.95
-0.36,-0.74,0.01,8.82,-22.14,2.13
-0.12,-0.86,0.09,-14.46,-57.21,9.03
-0.22,-0.85,0.13,14.79,-23.48,-27.54
-0.41,-0.99,0.04,-33.99,-16.89,-14.71
-0.38,-1.11,0.2,-44.36,-44.41,8.16
-0.28,-1.3,0.23,-35.36,-62.65,21.3
-0.2,-0.71,0.22,17.72,-53.39,-9.59
-0.22,-0.84,-0.06,-3.44,-98.69,33.79
-0.02,-1.02,0.16,-31.29,-51.34,9.19
-0.24,-0.79,0.16,4.19,-29.77,-24.41
-0.36,-0.81,-0.04,-1.89,-49.98,-20.87
-0.37,-0.92,0.07,-15.26,-34.5,-0.77
-0.44,-1.04,0.1,-4.31,-39.5,-3.4
-0.47,-1.03,0.01,-4.95,-48.24,5.85
-0.44,-1.17,0.02,-24.36,-50.55,23.55
-0.34,-0.94,0.15,-9.26,-33.24,12.76
-0.13,-0.9,0,-15.23,-89.49,40.42
-0.12,-0.99,0.19,-16.75,21.62,11.46
-0.21,-0.91,0.27,-17.52,9.57,15.55
-0.16,-0.79,0.12,-9.68,-37.43,5.21
-0.17,-0.75,0.14,-17.81,-18.38,7.15
-0.3,-0.86,0.11,-24.17,-29.13,-13.62
-0.4,-1.05,0.21,-21.74,-29.69,3.22
-0.42,-1.08,0.21,-16.91,-60.99,21.57
-0.27,-1.24,0.24,-27.25,-78.5,20.29
-0.22,-0.56,0.09,-1.71,-91.38,-5.04
-0.22,-1,0.03,-40.9,-71.75,17.31
-0.29,-0.97,0.24,-40.39,-39.56,15.05
-0.28,-0.72,0.13,-8.84,-89.15,-1.04
-0.32,-0.75,-0.07,-26.01,-49.62,7.49
-0.41,-0.9,0.12,-29.1,-5.94,-0.24
-0.53,-0.92,0,-34.48,8.36,6.68
-0.6,-0.93,-0.04,-28.91,8.61,6.75
-0.44,-1.02,0.06,-37.84,-83.27,7.36
-0.23,-0.83,0.08,-2.68,-6.74,-2.29
-0.3,-1,0.02,-20.16,24.66,11.21
-0.32,-1.07,0.14,-16.25,12.34,-7.56
-0.27,-0.89,0.09,-0.49,-18.25,-2.2
-0.21,-0.75,-0.04,-3.15,-9.46,-1.38
-0.27,-0.77,-0.02,-22.32,-10.76,-8.23
-0.37,-0.87,-0.07,-30.49,-16.7,-11.16
-0.48,-1.02,0.05,-22.67,-17.53,-4.01
-0.41,-1.09,0.04,-21.01,-55.78,12.21
-0.28,-1.16,0.02,-23.18,-51.96,3.84
-0.27,-0.56,0.04,-3.79,-46.44,-4.02
-0.19,-1,0.01,-25.2,-51.44,6.03
-0.27,-0.9,0.11,8.27,28.06,-26.1
-0.51,-0.68,-0.05,8.58,-20.4,-15.94
-0.31,-0.85,-0.07,-10.88,-70.29,6.7
-0.35,-0.98,0.07,3.25,-24.02,-5.08
-0.42,-0.92,-0.13,24.58,-25.48,-6.25
-0.49,-0.97,-0.13,-5.3,-29.38,-7.1
-0.48,-1.13,-0.03,-7.2,-20.15,-5.44
-0.47,-0.8,0.01,-2.33,-24.48,-7.37
-0.11,-0.86,0.02,-10.34,-12.24,-1.38
-0.3,-1.04,0.2,1.61,106.71,-20.03
-0.51,-0.85,0.24,11.76,54.24,-5.55
-0.28,-0.71,0.13,1.18,-24.33,20.19
-0.09,-0.9,0.08,-10.79,-0.93,4.19
-0.26,-0.91,0.16,-20.86,15.17,-7.12
-0.4,-1.07,0.08,-20.31,28.71,1.7
-0.29,-1.24,0.15,-12.04,-28.24,11.33
-0.14,-0.79,0.14,11.81,-26.86,0.99
-0.17,-0.96,-0.07,9.64,-26.68,27.07
-0.15,-1.06,-0.06,6.2,-28.52,-8.13
-0.3,-0.8,-0.06,19.29,-33.37,-15.12
-0.24,-0.7,-0.12,7.54,-37.26,-14.22
-0.31,-0.88,-0.06,-11.17,-13.88,-15.8
-0.46,-0.95,0.04,-12.31,-32.82,-26.01
-0.5,-1.04,0.08,4.19,-6.47,-5.47
-0.42,-1.24,0.02,9.9,16.64,12.52
-0.4,-1.15,0.06,8.09,40.18,-2.75
-0.32,-0.61,0.09,10.78,35.88,4.34
-0.2,-0.87,-0.03,-3.12,43.29,23.42
-0.23,-1.06,0.17,-12.59,66.63,2.77
-0.32,-0.84,0.24,-2.48,14.29,11.83
-0.14,-0.74,0.07,16.5,8.84,17.87
-0.13,-0.83,0.03,-1.13,26.4,3.9
-0.36,-1.01,0.11,-7.35,-0.07,-2.97
-0.27,-1.09,0.14,-7.32,-33.91,4.5
-0.34,-1.2,0.06,0.97,-26.29,4.34
-0.22,-0.74,0.1,8.82,-40.14,-4.16
-0.2,-0.83,-0.08,8.14,-50.93,9.95
-0.23,-1.06,0.04,-14.67,-5.41,-2.19
-0.37,-0.81,0.04,10.55,-19.34,-15.48
-0.34,-0.73,-0.09,-3.46,-19.34,-1.27
-0.35,-0.88,0.04,-11.72,4.18,-1.87
-0.47,-0.87,0.05,-3.52,-3.27,-13.28
-0.46,-1.03,0.1,0.56,-9.68,4.71
-0.37,-1.25,0.13,7.87,3.08,14.07
-0.27,-1,0.04,12.8,15.35,-3.71
-0.23,-0.79,-0.02,4.75,4.14,4.68
-0.12,-0.95,0.05,0.74,55.57,-13.35
-0.39,-0.94,0.13,7.02,87.5,-19.48
-0.45,-0.79,0.15,7.64,26.71,4.17
-0.22,-0.83,0.04,-1.47,-1.15,16.26
-0.23,-0.87,0.12,-3.58,16.09,0.72
-0.33,-0.97,0.06,-12.79,-29.3,3.68
-0.23,-1.11,0.11,-7.43,-36.89,11.79
-0.23,-1.14,0.1,3.06,-6.57,1.09
-0.25,-0.79,0.07,-13.88,-68.31,-4.65
-0.15,-0.92,0.02,-19.29,-67.12,8.09
-0.28,-1.09,0.01,-2.15,9.92,-19.48
-0.49,-0.72,0.01,4.51,-9.01,-9.77
-0.31,-0.7,-0.14,-14.7,-51.81,12.9
-0.3,-0.9,0.03,-22.15,-18.4,2.11
-0.42,-0.79,0.04,5.99,3.99,-16.05
-0.53,-0.93,-0.12,-5.92,-3.38,12.94
-0.43,-1.25,-0.02,-16.74,-28.79,3.58
-0.45,-1.12,0.05,-3.09,-17.69,1.88
-0.26,-0.77,0.1,4.15,4.12,-5.25
-0.17,-0.88,0.05,1.5,-3.5,-6
-0.25,-1.04,0.14,3.93,50.77,-19.47
-0.33,-0.94,0.2,13.52,38.19,-11.82
-0.36,-0.68,0.15,23.72,-20.53,15.71
-0.2,-0.76,0,7.3,27.63,-1.46
-0.3,-0.89,0.04,-0.55,30.17,-13.52
-0.45,-1.06,0.05,-10.66,15.56,-4.42
-0.3,-1.25,0.15,-10.31,-7.66,1.29
-0.35,-1.02,0.1,-4.31,-17.46,-5.92
-0.26,-0.7,0.02,2.02,-26.94,12.52
-0.14,-1.07,0.03,-12.97,-22.34,8.3
-0.36,-0.9,0.17,4.04,28.35,-5.17
-0.31,-0.71,0,4.25,-42.27,9.42
-0.18,-0.82,-0.02,-0.22,-7.1,3.13
-0.38,-0.88,0.06,25.23,25.53,0.43
-0.52,-0.98,0.02,10.2,8.81,5.77
-0.57,-1.07,0.01,-0.21,-14.79,25.74
-0.25,-1.12,0.06,13.78,-16.5,36.49
-0.2,-0.85,0.03,11.02,30.63,-7.33
-0.23,-0.73,0,0.46,22.21,-13.34
-0.34,-1.02,0.02,6.63,56.84,-18.38
-0.39,-0.88,0.26,10.4,38.89,-7.97
-0.29,-0.75,0.17,18.91,12.98,4.61
-0.15,-0.84,0.01,-5.8,8.15,-2.06
-0.36,-0.93,0.1,10.31,35.44,2.9
-0.39,-1.13,0.05,0.5,-4.31,15.63
-0.28,-1.17,0.1,-27.42,-54.82,6.09
-0.36,-1.02,0.13,-4.02,5.08,-19.87
-0.34,-0.71,0.08,-7.06,-21.41,1.29
-0.21,-1.03,0.02,-29.92,-44.4,17.19
-0.34,-0.91,0.19,-6,-32.05,-1.34
-0.25,-0.72,-0.01,-4.69,-47.8,-1.39
-0.33,-0.72,0.02,-7.47,-18.36,-4.69
-0.45,-0.87,0.04,8.81,10.94,-12.36
-0.58,-0.89,0,10.42,-0.21,0.23
-0.57,-1.03,-0.01,8.84,21.79,18.53
-0.67,-0.91,-0.05,-4.78,25.7,74.18
-0.47,-0.96,0.15,-12.39,0.73,36.94
-0.44,-0.8,0.03,24.67,26.69,15.52
-0.32,-0.99,0.11,16.03,27.66,2.42
-0.41,-0.9,0.18,19.8,50.23,-13.47
-0.37,-0.74,0.16,31.57,46.7,7.32
-0.29,-0.69,0.16,11.44,27.07,1.66
-0.35,-0.75,0.24,15.89,29.34,-12.49
-0.49,-0.81,0.08,20.64,26.24,-11.97
-0.53,-0.96,0.1,8.88,6.57,7.2
-0.46,-1.12,0.1,18.64,12.95,-6.42
-0.58,-1.05,0.08,11.8,-6.11,-10.22
-0.35,-0.52,0.02,36.35,12.53,1.64
-0.26,-1.01,0.05,9.07,44.85,-0.74
-0.52,-1,0.2,56.1,111.66,-19.26
-0.43,-0.74,0.05,43.24,27.27,-0.99
-0.28,-0.73,0.04,23.28,51.47,-2.55
-0.37,-0.85,0.05,41.25,56.47,-12.42
-0.41,-0.78,0.12,29.07,90.06,-16.24
-0.51,-1,0.18,44.15,87.69,-2.98
-0.54,-1.26,0.16,18.58,91.18,-23.97
-0.32,-1.12,0.22,45.71,107.97,-26.72
-0.31,-0.91,0.18,40.74,127.23,-22.03
-0.26,-0.87,0.24,48.91,130.79,6.09
-0.19,-0.87,0.25,42.77,110.15,-7.82
-0.28,-0.9,0.23,47.83,105.47,9.19
-0.17,-1.04,0.28,20.89,86.21,17.94
-0.2,-1.05,0.43,47.81,107.69,-3.24
-0.23,-0.98,0.36,44.8,98.61,-2.84
-0.23,-0.98,0.22,36.54,93.02,-4.26
-0.24,-0.98,0.41,75.85,73.13,-9.58
-0.3,-0.84,0.13,63.77,106.98,-10.61
-0.32,-0.98,0.18,10.21,44.87,-12.08
-0.31,-0.94,0.22,26.03,82.98,-15.97
-0.38,-1.04,0.2,10.1,67.82,-3.19
-0.3,-0.81,0.21,31.14,69.45,11.83
-0.17,-0.94,0.05,34.46,54.88,31.16
-0.21,-1.16,0.15,18.61,88.4,14.74
-0.23,-1,0.14,39.06,47.76,15.48
-0.07,-0.83,-0.08,28.14,46.37,14.57
-0.08,-0.97,-0.03,26.52,84.02,-5.37
-0.25,-0.95,-0.05,10.58,57.78,-19.97
-0.21,-0.9,0,16.85,18.54,-5.7
-0.21,-0.89,-0.02,12.88,24.66,-10.68
-0.33,-0.9,0,13.77,35.37,-15.34
-0.46,-0.94,-0.01,9.78,27.81,-3.7
-0.37,-1.04,-0.01,2.18,28.38,8.87
-0.36,-1.23,-0.01,1.91,36.29,4.9
-0.32,-0.96,-0.03,22.06,46.6,-0.03
-0.25,-0.7,0.04,3.32,30.34,9.26
-0.19,-1.03,0.06,2.99,53.65,14.14
-0.29,-1.09,0.21,-0.52,41.61,15.09
-0.17,-0.86,0.14,14.08,-0.92,16.17
-0.12,-0.77,0.03,12.02,12.34,10.78
-0.26,-0.83,0.07,6.64,27.45,0.59
-0.3,-0.94,0.04,-1.46,-7.88,-2.39
-0.42,-1.04,0.04,-10.08,-11.79,-2.53
-0.38,-1.21,0.08,-10.78,-33.26,9.24
-0.32,-1.09,0.02,-7.47,-33.66,1.94
-0.26,-0.72,0.05,-10,-37.19,-4.82
-0.3,-0.87,-0.02,-18.21,-30.27,12.41
-0.31,-1.05,0.09,-10.22,-38.55,14.42
-0.19,-0.82,-0.01,-1.9,-51.47,5.04
-0.23,-0.7,-0.05,-2.36,-5.82,-13.21
-0.39,-0.75,0.01,-7.04,-34.02,-22.83
-0.49,-0.9,0.02,7.52,-1.24,-19.22
-0.59,-1,0.11,-1.6,1.54,-1.26
-0.49,-1.21,0.09,4.59,-2.51,18.46
-0.41,-1.04,0.1,18.75,3.05,8.44
-0.33,-0.81,0.07,21.79,22.32,3.25
-0.24,-0.93,0.09,45.64,3.03,-17.45
-0.32,-0.9,0.04,40.8,81.91,-23.9
-0.41,-0.87,0.2,-0.36,66.43,20.98
-0.17,-0.82,0.17,2.38,-26.82,37.03
-0.1,-0.82,0.13,4.16,-4.36,18.92
-0.12,-0.85,0.12,5.74,-4.18,-6.31
-0.37,-1.01,0.02,-17.55,-14.72,-19.77
-0.37,-1.21,0.24,-37.28,-42.93,-1.88
-0.39,-1.15,0.22,-17.2,-49.33,-3.28
-0.27,-0.73,0.07,12.88,-48.05,7.46
-0.25,-0.94,0.02,-14.43,-69.68,22.35
-0.22,-0.99,0.2,-15.43,-52.12,-4.54
-0.3,-0.74,0.06,-6.76,-52.37,-5.97
-0.28,-0.73,0.03,-18.21,-30.31,-6.92
-0.39,-0.86,0.07,-31.01,3.5,-5.9
-0.49,-0.92,0.11,-31.88,-21.8,-0.74
-0.43,-1.02,0.1,-7.27,-20.7,1.69
-0.42,-1.2,0.14,-6.33,-6.66,-4.23
-0.44,-0.93,0.19,3.69,-1.81,-8.9
-0.24,-0.8,0.08,15.11,-8.34,8.93
-0.16,-0.95,0.1,-7.3,30.68,-7.18
-0.35,-0.92,0.27,-4.49,43.66,2.8
-0.22,-0.78,0.11,6.77,-48.24,34.46
0.05,-0.81,0.07,-19.7,-64.35,20.58
-0.12,-0.86,0.19,-12.72,7.04,-14.16
-0.35,-1.08,0.16,-18.3,-20.78,-14.63
-0.37,-1.14,0.19,-23.39,-60.79,-6.79
-0.29,-1.23,0.13,-32.6,-74.15,-12.75
-0.31,-0.74,0.14,-7.36,-47.16,-34.3
-0.43,-0.73,-0.08,-14.29,-45.65,-0.29
-0.35,-1.19,0.13,-45.39,-42.38,23.23
-0.36,-0.8,0.07,12.16,-38.05,-1.54
-0.32,-0.67,-0.06,0.01,0.7,-2.44
-0.38,-0.82,0.15,-20.2,14.06,-12.13
-0.43,-0.75,0.23,15.93,22.46,-19.06
-0.49,-1.39,0.15,3.11,35.75,16.39
-0.26,-0.98,0.32,35.79,53.15,6.57
-0.23,-0.9,0,45.02,54.53,24.45
-0.11,-0.96,0.1,9.8,81.3,24.03
-0.18,-0.8,0.22,14.23,50.27,-14.82
-0.26,-0.75,0.13,10.59,52.14,-7.73
-0.28,-0.88,0.25,2.35,45.06,-13.38
-0.42,-0.89,0.2,7.79,14.98,-16.42
-0.48,-0.92,0.18,0.22,-15.43,12.1
-0.38,-1.03,0.23,-3.31,-32.77,28.94
-0.31,-1.18,0.13,1.1,-40.89,28.29
-0.16,-1.01,0.21,-9.36,-70.37,13.22
-0.25,-0.79,-0.05,25.5,-36.44,3.86
-0.27,-1.11,-0.08,-26.08,-64.41,25.65
-0.14,-0.88,-0.05,-12.9,-87.75,7.31
-0.2,-0.76,-0.19,-29.07,-52.64,-0.14
-0.36,-0.89,0.06,-31.6,-29.18,-6.89
-0.46,-0.93,-0.01,-20.42,-73.5,3
-0.39,-0.95,0.08,-30.62,-69.89,2.71
-0.4,-0.96,0.04,-10.74,-56.59,1.61
-0.39,-1.08,0.02,-30.66,-65.9,0.94
-0.4,-0.88,0.13,-21.35,-49.88,1.13
-0.18,-0.88,0.07,-29.05,-63.69,27.59
-0.15,-1.15,0.21,-43.97,-32.79,-0.9
-0.26,-0.87,0.22,-17.61,-42.69,-1.52
-0.21,-0.76,0.07,-31.39,-72.92,0.58
-0.23,-0.79,0.18,-33.87,-54.44,-4.55
-0.36,-0.83,0.09,-31.29,-57.38,-16.06
-0.32,-1,0.2,-43.63,-58.73,-21.83
-0.43,-0.98,0.17,-25.81,-53.94,-23.32
-0.42,-1.41,0.23,-50.8,-67.37,-9.31
-0.31,-0.78,0.24,-7.44,-67.92,-1.95
-0.26,-1.01,-0.03,-22.75,-76.68,24.73
-0.23,-0.9,0.14,-20.29,-35.19,8.61
-0.27,-0.8,0.01,-11.38,-52.29,2.94
-0.29,-0.87,0.08,-19.94,-13.27,3.78
-0.38,-0.82,0,-2.45,-19.79,4.06
-0.36,-0.82,0,-8.4,-1.11,8
-0.4,-0.97,0.02,-2.01,10.82,2.72
-0.43,-1.22,0.09,-7.48,12.98,3.72
-0.34,-1.22,0.17,14.69,53.99,-2.93
-0.24,-0.72,0.12,15.43,59.88,5.15
-0.23,-1.05,0.09,-10.07,27.89,10.2
-0.17,-0.99,0.31,-0.58,38.75,7.52
-0.17,-0.8,0.15,14.61,32.09,4.96
-0.13,-0.83,0.18,5.61,47.79,1.26
-0.29,-0.91,0.21,9.93,44.64,-10.55
-0.3,-0.91,0.2,16.48,48.13,-10.21
-0.33,-0.85,0.15,18.87,39.05,-13.05
-0.35,-0.86,0.12,16.45,46.34,-7.99
-0.39,-1.3,0.23,5.88,38.7,4.32
-0.4,-0.99,0.22,41.73,52.41,-5.63
-0.3,-0.61,-0.05,38.88,55.74,24.61
-0.22,-1.15,0.17,0.42,49.15,21.1
-0.42,-1.14,0.29,48.86,82.11,10.32
-0.19,-0.86,0.15,49.61,49.06,37.6
0,-0.82,0.06,52.6,77.93,3.38
-0.21,-0.94,0.18,45.04,101.18,-26.25
-0.31,-0.89,0.13,65.32,116.1,-17.16
-0.26,-1.21,0.15,40.67,65.52,-1.13
-0.12,-0.79,0.16,63.64,96.37,-35.58
-0.15,-0.94,0.12,25.05,115.34,-30.1
-0.29,-1.21,0.42,24.99,147.57,-36.83
-0.3,-0.9,0.36,53.22,123.05,-9.48
-0.16,-0.79,0.27,35.67,108.21,2.81
-0.12,-1.09,0.35,33.95,114.92,-22.37
-0.44,-1.02,0.39,40.72,130.05,-24.62
-0.25,-0.88,0.28,42.78,93.1,12.2
-0.07,-0.87,0.25,27.41,111.92,6.47
-0.26,-0.94,0.31,33.06,124.79,-22.39
-0.23,-0.87,0.34,25.76,96.82,-9.05
-0.2,-0.92,0.23,23.1,82.08,-14.68
-0.31,-0.98,0.23,14.46,84.02,-19.35
-0.35,-0.93,0.17,12.72,57.56,3.93
-0.28,-1.07,0.16,21.09,58.2,24.82
-0.22,-1.09,0.06,25.74,50.85,33.63
-0.16,-1.02,0.08,9.52,22.19,24.71
-0.14,-0.86,0,18.32,34.21,21.43
-0.14,-0.96,0.04,6.5,23.47,14.42
-0.19,-0.93,0,23.24,38.05,4.41
-0.21,-0.85,-0.06,8.1,28.36,-1.96
-0.29,-0.87,0.06,-3.84,7.69,-6.52
-0.33,-0.84,0.1,5.78,9.17,-5.8
-0.35,-0.86,0.04,2.79,0.51,-3.47
-0.44,-0.86,0.04,6.56,1.23,-8.03
-0.53,-0.95,0.04,2.12,-12.5,2.6
-0.48,-0.96,0.04,4.62,-11.41,8.22
-0.4,-1.12,0.06,5.17,-3.87,7.75
-0.42,-1.01,0.08,0.07,1.12,2.72
-0.33,-0.85,0.1,1.24,1.08,30.48
-0.19,-1.07,0.14,-3.23,3.43,27.23
-0.23,-0.93,0.14,2.89,12.16,8.07
-0.26,-0.82,0.11,-0.97,1.34,14.44
-0.24,-0.83,0.1,-1.39,-8.72,15.69
-0.27,-0.8,0.05,-4.96,-13.98,2.61
-0.34,-0.85,0.08,-16.57,-21.08,2.84
-0.39,-0.94,0.11,-19.49,-31.38,-2.97
-0.4,-0.89,0.09,-17.71,-41.5,-1.1
-0.35,-0.99,0.08,-26.9,-43.69,-2.87
-0.37,-1.17,0.18,-21.54,-37.18,-10.19
-0.4,-0.72,0.01,-5.49,-40.45,-10.63
-0.28,-0.77,-0.02,-26.88,-46.05,10.46
-0.32,-1.11,0.13,-23.1,-52.17,-4.26
-0.36,-0.85,0.05,1.47,-30.56,-10.36
-0.34,-0.69,-0.06,-8.88,-27.86,-4.98
-0.4,-0.83,0.02,-19.68,-29.29,-12.36
-0.46,-0.85,0.03,-10.68,-30.59,-7.21
-0.41,-0.8,0.02,-6.4,-20.96,-5.82
-0.44,-0.92,0.01,-8.16,-22.17,-10.48
-0.36,-1.17,0.05,-18.94,-45.21,-14.45
-0.37,-1.04,0.11,-7.31,-11.08,-21.19
-0.36,-0.86,0,5.2,-21.6,6.13
-0.15,-0.78,-0.06,-10.4,-29.28,7.41
-0.23,-1.09,0.11,-25.36,-8.02,-0.83
-0.31,-1.07,0.2,-18.17,-36.63,-2.06
-0.24,-0.82,0.1,-10.08,-47.12,8.48
-0.2,-0.82,0.01,-19.52,-54.68,8.17
-0.29,-0.85,0.09,-21.63,-50.82,1.64
-0.3,-0.94,0.06,-30.75,-66.02,3.72
-0.39,-1.02,0.14,-30.85,-59.2,-1.34
-0.38,-0.98,0.08,-29.23,-75.02,10.95
-0.3,-1.15,0.15,-40.17,-75.05,12.05
-0.31,-0.81,0.06,-15.98,-72.01,10.9
-0.2,-0.87,0,-47.73,-97.67,28.87
-0.2,-1.09,0.11,-33.91,-87.02,7.16
-0.3,-0.83,-0.03,-25.26,-64.76,-8.73
-0.35,-0.76,0.05,-37.62,-67.82,-0.47
-0.38,-0.85,0.08,-32.3,-71.15,-2.79
-0.39,-0.86,0.11,-27.53,-63.97,-3.82
-0.43,-0.79,0.05,-15.37,-51.6,-11.55
-0.54,-0.93,0.05,-18.96,-43.18,-9.74
-0.61,-1.05,0.1,-15.04,-52.98,0.51
-0.48,-0.96,0,-13.56,-48.23,13.9
-0.37,-0.94,0.1,-14.6,-26.03,7.8
-0.39,-0.88,0.11,-11.68,-23.09,11.37
-0.27,-0.87,0.08,-8.78,-3.63,19.03
-0.2,-1.04,0.14,-15.78,0.47,7.83
-0.29,-0.95,0.22,-8.49,1.4,-7.84
-0.27,-0.81,0.09,0.14,-17.07,-3.21
-0.22,-0.81,0.06,-9.44,-8.92,-9.9
-0.3,-0.86,0.08,-9.49,-2.33,-23.11
-0.4,-0.89,0.1,-13.52,-4.83,-20.66
-0.5,-1,0.14,-13.84,-6.14,-11.24
-0.47,-1.12,0.12,-18.46,-47.93,4.11
-0.45,-1.06,0.12,-16.74,-42.76,15.32
-0.24,-0.77,0.12,-7.77,-52.05,15.16
-0.23,-0.7,-0.04,-17.98,-51.5,21.54
-0.22,-1.32,0.11,-15.09,-28.62,13.2
-0.26,-0.94,0,3.4,-29.57,-15.69
-0.24,-0.64,-0.12,-5.7,-0.34,-15.99
-0.35,-0.78,0.03,-23.48,-3.24,-19.39
-0.42,-0.89,0.08,-9,-10.72,-15.56
-0.47,-0.79,0.04,-4.55,-16.24,-5.43
-0.46,-0.92,0.03,-3.6,-8.51,-1.64
-0.55,-1.11,0.09,-12.94,-21.21,7.09
-0.43,-1.15,0.13,3.66,-9.6,10.66
-0.41,-0.9,0.08,15.35,1.64,11.52
-0.24,-0.72,-0.02,16.75,26.38,21.39
-0.26,-1.05,0.11,-0.72,61.94,-0.6
-0.44,-1.02,0.29,3.67,40.71,0.48
-0.28,-0.81,0.14,20.41,4.33,23.95
-0.11,-0.76,0.09,8.9,14.03,18.19
-0.25,-0.84,0.12,4.53,21.52,-5.46
-0.29,-0.88,0.1,-1.14,2.44,-2.42
-0.39,-1.04,0.12,-12.28,-12.36,4.72
-0.28,-1.26,0.14,-5.89,-24.46,3.42
-0.29,-0.96,0.15,-2.81,-34.58,-13.71
-0.35,-0.63,-0.03,8.52,-19.06,-0.47
-0.31,-0.98,0.09,-29.82,-51.55,19.68
-0.33,-1.05,0.14,1.19,-55.6,8.1
-0.29,-0.7,-0.12,2.22,-33.55,2.42
-0.31,-0.75,-0.05,-20.35,-16.93,-6.61
-0.46,-0.86,0.05,-12.98,-12.28,-13.3
-0.52,-0.82,0.02,-5.84,-16.54,-0.09
-0.43,-0.93,0.04,-6.07,-1.69,1.48
-0.5,-1.13,0.07,-9.83,-8.42,-2.06
-0.46,-1,0.1,0.71,-8.05,0.06
-0.44,-0.8,0.05,-1.95,-16.59,11.69
-0.25,-0.86,0.03,-8.71,-15.71,18.88
-0.31,-1.08,0.12,-15.07,15.18,-2.73
-0.36,-0.96,0.19,-2.04,-21.76,8.01
-0.21,-0.8,0.03,-4.2,-33.73,12.74
-0.18,-0.84,0.03,-19.05,-35.56,1.26
-0.27,-0.85,0.06,-21.25,-37.46,-13.32
-0.36,-1.01,0.06,-35.67,-46.04,-13.02
-0.33,-1.02,0.03,-38.9,-58.44,-10.44
-0.25,-1.11,0.05,-59.65,-97.58,4.84
-0.14,-0.93,0.16,-39.85,-93.19,-12.31
-0.35,-1,0.01,-37.68,-95.09,-14.52
-0.35,-0.91,0.06,-36.83,-93.98,-10.68
-0.3,-0.71,0,-31.12,-86.82,-16.18
-0.42,-0.8,0.1,-36.49,-70.12,-14.87
-0.5,-0.92,0.11,-22.2,-74.47,-6.83
-0.45,-0.84,0,-3.62,-56.44,-6.79
-0.51,-0.87,-0.08,3.32,-30.8,-5.7
-0.5,-1.1,-0.08,-12.58,-65.4,2.67
-0.39,-1.08,0.13,-30.36,-42.47,-1.7
-0.37,-0.85,0.2,-3.33,-21.49,-2.35
-0.3,-0.78,0.06,-1.54,-14.53,9.14
-0.26,-1.09,0.18,-20.45,7.73,3.99
-0.39,-0.93,0.28,1.87,8.16,-0.77
-0.35,-0.8,0.08,7.16,-23.88,19.61
-0.25,-0.82,0.03,-4.74,-31,25.43
-0.21,-0.86,0.06,-9.9,-20.95,13.43
-0.27,-0.94,0.1,-14.95,-5.18,-4.38
-0.38,-1,0.15,-18.46,-13.48,-4.43
-0.28,-0.99,0.12,-16.94,-44.33,-2.69
-0.29,-1.04,0.17,-26.86,-40.07,-2.23
-0.29,-0.74,0.17,-3.84,-50.52,-1.15
-0.28,-1,0.07,-19.68,-47.86,9.61
-0.32,-1.01,0.2,-4.34,-36.19,0.58
-0.35,-0.73,0,6.1,-52.4,-3.58
-0.33,-0.73,-0.06,-12.82,-32.83,4.78
-0.37,-0.85,0.05,-6.68,-14.97,-3.22
-0.43,-0.87,0.05,-5.36,-14.73,-7.82
-0.47,-0.98,0.01,-7.43,4.13,-22.16
-0.57,-1.13,0.22,-10.93,10.47,-12.62
-0.48,-1.01,0.21,13.19,6.68,11.21
-0.32,-0.77,0.1,16.51,27.5,19.74
-0.28,-1.05,0.16,-4.34,43.92,26.74
-0.33,-1.04,0.28,14.93,41.61,14.9
-0.19,-0.8,0.13,24.66,-6.32,24.9
-0.05,-0.75,0.06,14.76,23.73,9.75
-0.17,-0.84,0.14,3,24.23,-8.29
-0.28,-0.87,0.13,2.48,8.15,-20.45
-0.41,-1.01,0.19,-8.23,-4.02,-11.05
-0.3,-1.07,0.19,-1.65,-21.22,-17.66
-0.41,-1.07,0.14,-14,-34.34,-12.72
-0.36,-0.71,0.22,3.35,-65.66,-5.36
-0.29,-0.89,0.05,-6.52,-39.95,4.1
-0.38,-1.07,0.24,-4.23,6.32,3.59
-0.37,-0.8,0.09,21.35,-38.53,1.26
-0.28,-0.71,-0.03,2.88,-6.67,8.03
-0.29,-0.86,0.1,-7.79,1.02,-6.97
-0.45,-0.9,0.13,1.34,7.97,-12.25
-0.46,-0.99,0.07,-3.44,2,2.48
-0.45,-1.25,0.16,-12.26,5.06,0.05
-0.46,-1.02,0.21,6.35,8.56,-7.77
-0.38,-0.78,0.17,13.54,48.53,4.35
-0.25,-0.94,0.15,4.35,47.68,13.16
-0.33,-1.01,0.21,3.69,61.89,-0.55
-0.32,-0.82,0.2,5.5,14.79,25.42
-0.11,-0.75,0.08,7.58,13.64,23.87
-0.15,-0.84,0.15,-6.65,19.24,1.23
-0.22,-0.86,0.16,7.73,21.51,-9.81
-0.31,-0.96,0.06,-5.84,24.88,-16.19
-0.42,-1.2,0.13,-11.1,-11.17,-10.02
-0.36,-1.11,0.07,-3.81,-31,-9.74
-0.32,-0.88,0.17,-7.65,-38.21,-5.26
-0.28,-0.74,-0.01,-8.97,-54.45,5.17
-0.31,-1.14,0.13,-24.31,-27.03,9.6
-0.28,-0.96,0.14,7.01,-52.11,-2.39
-0.26,-0.69,-0.09,8.16,-24.35,-12.94
-0.33,-0.75,0,-15.35,-5.83,-16.73
-0.43,-0.87,0.1,-6.28,-4.29,-18.19
-0.45,-0.8,0.04,0.13,-9.34,-8.88
-0.41,-0.81,0,-3.74,-2.98,-4.24
-0.4,-0.73,0.06,-9.89,-6.34,-5.17
-0.32,-1.13,0.19,-12.41,15.76,-4.05
-0.4,-1.23,0.29,-1.8,37.41,3.82
-0.29,-1.25,0.22,26.24,27.62,9.81
-0.24,-0.92,0.16,19.59,27.44,7.29
-0.26,-0.79,0.07,27.1,25.12,11.4
-0.28,-0.86,0.08,-3.57,0.86,22.19
-0.2,-0.87,0.19,-3.58,-20.88,21.92
-0.15,-0.85,0.08,-9.36,-21.05,8.26
-0.27,-1.02,0.21,-15.09,-10.84,-2.36
-0.32,-1.16,0.16,-10.88,-39.71,-2.18
-0.28,-1.17,0.22,-10.17,-43.21,-9.23
-0.26,-0.73,0.05,11.31,-39.33,-14.19
-0.27,-0.81,-0.16,-21.17,-33.3,14.72
-0.27,-1.27,0.1,-45,-31.59,-3.98
-0.32,-0.87,0.15,-14.81,-66.32,-10.65
-0.2,-0.74,-0.05,-12.06,-49.08,-2.69
-0.24,-0.85,0.06,-30.36,-56.23,-7
-0.38,-0.89,0.11,-25.05,-38.9,-4.94
-0.38,-0.94,0.08,-13.91,-50.98,-0.39
-0.46,-1.04,0.05,-19.74,-50.16,5.63
-0.44,-0.97,0.03,-23.41,-65.61,13.6
-0.32,-1.01,0.06,-33.5,-63.09,23.34
-0.27,-0.74,0.08,-15.55,-50.92,18.45
-0.24,-1.07,-0.07,-28.39,-25.89,24.24
-0.32,-1.31,0.22,-53.26,-42.94,14.52
-0.17,-0.89,0.17,-22.55,-84.35,9.23
-0.07,-0.75,-0.01,-28.62,-54.55,1.53
-0.23,-0.9,0.07,-52.92,-36.64,-10.85
-0.37,-1.01,0.14,-63.63,-80.25,-3.71
-0.33,-1.13,0.14,-73.49,-106.51,12.33
-0.11,-1.09,0.21,-73.96,-116.69,1.36
-0.19,-0.74,0.1,-37.37,-78.27,-28.91
-0.28,-0.89,0,-37.33,-56.57,-20.06
-0.29,-0.92,-0.05,-44.9,-87.39,-27.22
-0.4,-0.87,0.01,-45.96,-96.6,-17
-0.26,-0.93,-0.04,-22.13,-75.5,-12.39
-0.37,-0.86,-0.15,-20.86,-76.4,-6.71
-0.34,-0.9,-0.09,-30.84,-94.52,4.68
-0.3,-0.91,-0.03,-25.94,-87.66,4.77
-0.28,-0.89,-0.07,-22.21,-85.89,0.32
-0.37,-0.91,-0.07,-19.86,-85.85,-0.68
-0.34,-0.95,-0.09,-25.31,-102.63,11.63
-0.31,-0.93,-0.02,-26.17,-97.21,4.42
-0.36,-0.9,-0.04,-14.27,-82.87,6.01
-0.36,-0.94,-0.04,-46.58,-67.05,-8.18
-0.34,-0.95,0.21,-52.47,-32.95,-18.39
-0.45,-0.94,0.21,-17.57,-50.44,-13.15
-0.29,-0.96,0.14,-28.71,-66.96,1.84
-0.26,-1.01,0.23,-41.27,-53.14,-11.81
-0.3,-0.93,0.28,-19.03,-56.28,-16.71
-0.2,-0.81,0.19,-4.62,-74.79,-15.57
-0.23,-0.87,0.17,-11.2,-58.56,-16.65
-0.31,-0.94,0.22,-9.63,-47.14,-23.48
-0.37,-0.9,0.16,-1.08,-53.2,-19.57
-0.39,-0.9,0.1,-7.31,-47.9,-16.8
-0.43,-0.89,0.1,-11.96,-42.73,-9.57
-0.39,-0.95,0.11,-19.49,-40.5,-5.61
-0.44,-1.08,0.15,-20.04,-40.97,-2.78
-0.27,-1.25,0.21,-29.52,-93.05,17.61
-0.13,-1.19,0.23,-17.79,-72.02,7.66
-0.11,-0.87,0.19,0.15,-27.31,-6.96
-0.21,-0.7,0,2.78,-45.11,9.35
-0.14,-1.11,0.12,-26.99,-49.69,32.06
-0.09,-1.03,0.15,-3,-34.56,1.16
-0.23,-0.81,0.02,0.22,-11.53,-1.25
-0.21,-0.9,0,-11.59,-13.56,5.65
-0.26,-0.94,0.07,-4.41,-19.08,3.41
-0.26,-0.88,0,0.73,-2.79,0.94
-0.25,-0.87,0.03,-8.44,-6.76,0.58
-0.3,-0.93,0.09,-8.37,-2.99,-8.52
-0.29,-1.12,0.13,-9.85,-14.87,-10.96
-0.35,-1.27,0.18,-0.68,-7.79,-12.4
-0.32,-1.01,0.12,13.13,-2.61,-10.8
-0.21,-0.75,0.01,15.32,-3.73,17.4
-0.06,-1,0.1,-11.04,-15.13,21.93
-0.04,-0.97,0.2,6.79,39.58,4.69
-0.16,-1.04,0.14,8.97,3.78,12.5
-0.09,-0.85,0.04,18.44,-0.38,11.9
-0.06,-0.8,0.04,-3.21,4.7,6.2
-0.14,-0.86,0.14,-1.25,9.44,-8.05
-0.27,-0.89,0.08,-2.56,7.24,-17.16
-0.36,-0.95,0.16,-13.12,3.12,-8.36
-0.33,-1.01,0.16,-8.34,-22.28,0.38
-0.34,-1.16,0.12,-13.75,7.2,-3.39
-0.34,-1.16,0.24,-12.01,-19.89,6.39
-0.23,-0.83,0.13,5.52,-18.67,2.6
-0.14,-0.75,0.03,-13.32,-20.5,16.29
-0.16,-1.21,0.28,-14.62,1.93,2.12
-0.22,-0.87,0.1,31.97,-7.47,-7.34
-0.2,-0.68,-0.06,5.57,-3.09,3.81
-0.28,-0.91,0.14,-8.51,18.38,7.43
-0.3,-0.94,0.07,7.48,-2.28,-1.74
-0.36,-0.94,0.05,5.03,5.65,5.48
-0.28,-1,0.04,2.8,8.37,-6.41
-0.43,-1.21,0.18,0.56,6.53,4.43
-0.13,-0.94,0.03,31.89,-1.85,15.08
-0.01,-0.97,0.02,-23.81,-19.98,-14.05
-0.18,-1.03,0.24,-9.13,61.69,-33.02
-0.34,-0.77,0.1,19.52,15.4,-28.07
-0.19,-0.74,0.04,-12.11,-1.91,4.22
-0.24,-0.93,0.21,-11.29,6.44,-4.85
-0.31,-1.01,0.16,-6.02,-23.76,3.14
-0.35,-1.11,0.23,-6.71,-22,10.23
-0.19,-1.24,0.15,-3.05,-34.13,16.58
-0.2,-0.76,0.15,10.86,-34.42,13.54
-0.19,-1,-0.02,5.22,-31.48,29.99
-0.13,-0.97,0.06,3,-31.1,17.55
-0.23,-0.78,-0.03,5.83,-29.22,8.66
-0.2,-0.85,0.05,-13.66,-14.88,5.05
-0.35,-0.92,0.11,1.61,7.21,-8.1
-0.45,-0.86,0.05,7.27,2.63,-0.47
-0.39,-0.96,0.13,-1.37,1.56,6.81
-0.32,-1.18,0.22,4.77,17.48,-4.29
-0.41,-0.79,0.16,21.72,27.13,-1.58
-0.17,-0.96,0.12,1.86,-20.92,22.42
-0.11,-1,0.27,8.47,28.93,-6.41
-0.26,-0.88,0.16,17.64,0.24,-1.29
-0.16,-0.79,0.09,10.05,-0.08,4.01
-0.19,-0.84,0.1,-5.84,-5.92,-3.93
-0.24,-0.94,0.08,-10.97,-9.22,-10.78
-0.34,-1.11,0.19,-33.25,-20.33,-8.44
-0.3,-1.1,0.23,-16.17,-46.49,-5.56
-0.26,-1.07,0.27,-27.93,-68.15,1.25
-0.21,-0.78,0.09,0.24,-41.27,-0.32
-0.22,-1.04,0.11,-25.04,-40.22,7.1
-0.21,-0.88,0.18,-7.04,-49.13,-2.59
-0.27,-0.77,0.01,-8.28,-30.66,-4.72
-0.33,-0.85,0.11,-18.82,-24.43,-0.16
-0.41,-0.9,0.07,-10.97,-34.61,-2.69
-0.45,-1,0.06,-8.95,-11.6,5
-0.51,-1.2,0.11,-17.6,-9.21,19.2
-0.38,-1.04,0.13,-2.08,-25.71,27.19
-0.2,-0.88,0.07,-13.21,-23.56,22.41
-0.02,-1,0.24,-17.43,26,-14.73
-0.35,-0.86,0.19,17.54,78.87,-42.65
-0.41,-0.74,0.12,10.29,18.37,-2.79
-0.27,-0.85,0.15,6.93,12.05,20.35
-0.18,-0.93,0.17,7.17,11.84,15.51
-0.2,-1,0.15,7,24.31,-8.65
-0.32,-0.99,0.05,-8.01,6.23,-12.55
-0.28,-1.18,0.12,-20.97,-17.35,-6.11
-0.29,-0.86,0.22,-1.01,-29.97,-7.29
-0.26,-0.78,-0.02,1.58,-16.64,18.52
-0.19,-1,0.08,-16.55,-20.6,9.12
-0.25,-0.83,0.07,8.82,-2.67,-4.57
-0.28,-0.74,0,-6.93,-6.92,0.46
-0.35,-0.88,0.03,-7.58,8.39,-8.97
-0.51,-0.95,0.05,-3.62,22.11,-13.9
-0.66,-0.99,0.03,-0.64,20.3,12.59
-0.47,-1.17,0.08,-12.78,-1.23,44.01
-0.29,-0.97,0.18,14.56,21.81,27.47
-0.11,-1,0.09,3.04,30.75,34.06
-0.12,-0.96,0.2,25.19,118.52,-17.68
-0.27,-0.66,0.02,33.61,70.28,-13.87
-0.19,-0.74,0.05,-5.68,26.06,-8.85
-0.19,-0.97,0.2,-11.24,11.25,-19.01
-0.3,-0.93,0.25,9.51,12.86,-37.03
-0.4,-0.94,0.07,9.86,25.51,-18.51
-0.42,-1.27,0.22,-10.86,-4.98,6.84
-0.19,-0.94,0.11,36.02,-25.06,-4.36
-0.18,-0.74,-0.16,38.29,17.94,5.24
-0.28,-1.18,0.09,-8.12,-5.6,7.31
-0.15,-0.88,0.02,40.8,-11.05,-5.87
-0.21,-0.73,-0.15,22.09,25.46,-9.07
-0.29,-0.87,0.05,-9.88,17.08,-11.17
-0.35,-0.92,0.12,12.56,36.28,-12.78
-0.44,-0.94,0.03,9.25,41.84,-13.74
-0.44,-1.1,0.12,9.3,37.97,3.13
-0.38,-1.37,0.15,6.98,40.31,17.74
-0.09,-0.7,0.02,23.51,41.85,11.06
-0.06,-0.97,0.06,-8,61.63,-1.39
-0.12,-1.05,0.3,-2.9,61.2,-7.4
-0.11,-0.85,0.08,25.22,46.71,-15.65
-0.15,-0.89,0.18,-8.05,29.66,-8.08
-0.18,-0.95,0.23,8.87,19.99,-12.8
-0.21,-0.87,0.09,6.56,16.04,-14.51
-0.29,-1.09,0.14,-10.1,-1.89,-4.42
-0.24,-1.56,0.31,-19.88,-19.8,3.12
-0.16,-0.78,-0.01,66.29,5.3,-20.09
-0.09,-0.6,-0.3,26.69,-20.18,10.07
-0.15,-1.09,0.08,-57.84,-32.05,15.39
-0.12,-1.08,0.2,13,-22.77,6.74
-0.15,-0.8,-0.14,29.11,-14.16,0.4
-0.12,-0.83,-0.04,-10.33,-23.27,2.27
-0.15,-0.94,0.05,4.9,20.32,-27.92
-0.36,-0.94,-0.03,11.58,22.83,-36.81
-0.38,-0.96,-0.03,-0.49,30.13,-37.1
-0.4,-1.24,0.07,-20.71,59.31,-19.87
-0.21,-1.31,0.18,9.58,22.75,-0.81
-0.04,-0.72,-0.01,21.87,0.51,-5.19
-0.08,-1.15,0.16,-13.39,75.84,-7.15
-0.24,-1.03,0.34,11.8,81.71,10.86
-0.02,-0.82,0.08,18.2,16.6,25.68
0.05,-0.94,0.23,-14.88,51.84,19.44
0,-1.01,0.24,-14.07,61.76,-11.96
-0.08,-0.97,0.2,-7.94,57.9,-6.42
-0.13,-1.13,0.21,-6.52,20.98,12.77
0,-1.09,0.14,20.83,-4.47,12.1
-0.09,-1,0.03,11.22,19.23,2.55
-0.1,-0.77,0.05,16.12,13.56,10.49
-0.06,-1.17,0.06,1.27,1.93,17.29
0.01,-1.03,0.08,29.16,42.73,-6.29
-0.19,-0.81,-0.08,35.3,35.46,-5.26
-0.18,-0.87,-0.05,-4.55,0.57,-3.03
-0.22,-0.95,0.07,-1.3,6.21,0.83
-0.23,-0.95,0.04,-0.84,-1.47,4.6
-0.26,-1.05,0.08,-3.03,-15.04,15.64
-0.22,-1.18,0.11,0.65,-17.48,20.42
-0.16,-1.12,0.05,18.13,-2.38,2.2
-0.16,-0.76,-0.07,12.5,3.68,14.65
-0.09,-1.22,0.04,-17.92,20.53,12.52
-0.19,-1.05,0.2,1.27,17.91,1.59
-0.14,-0.77,-0.06,11.24,-9.07,7.61
-0.11,-0.84,0.08,-31.27,-5.46,14.58
-0.09,-0.9,0.17,-19.73,-18.05,-1.84
-0.22,-0.96,0.15,-19.03,-18.37,-4.88
-0.16,-1.14,0.19,-26.56,-58.76,9.95
-0.14,-1.27,0.16,-18.11,-60.02,-3.45
-0.09,-0.9,0.14,9.17,-48.77,-24.07
-0.2,-0.7,-0.16,22.87,-38.65,-15.13
-0.26,-1.22,-0.01,-22.65,-52.63,-1.68
-0.21,-0.92,-0.02,18.83,-52.64,-18.34
-0.27,-0.74,-0.21,2.15,-37.85,-7.15
-0.27,-0.87,0.04,-38.25,-57.47,-2.21
-0.3,-0.95,0.13,-13.33,-55.57,-6.43
-0.33,-0.89,0.04,-0.44,-47.95,1.49
-0.25,-1.13,0,-7.57,-54.56,24.56
-0.09,-1.15,0.08,-11.23,-59.5,6.41
-0.14,-0.85,0.01,-5.23,-73.04,-11.56
-0.17,-1.2,-0.05,-24.5,-53.37,10.23
-0.09,-1.17,0.15,-6.98,-25.03,2.59
-0.12,-0.86,-0.02,-8.84,-43.4,-4.84
-0.03,-0.91,0.07,-31.78,-46.68,5.77
-0.13,-0.97,0.16,-32.34,-40.26,-6.68
-0.24,-1.01,0.2,-29.78,-44.76,2.06
-0.09,-1.07,0.22,-33.44,-81.86,7.1
-0.09,-0.98,0.22,-12.87,-47.73,-18.03
-0.21,-0.83,0.03,-0.17,-35.81,-18.22
-0.24,-1.01,0.02,-12.42,-31.33,-10.42
-0.25,-0.94,-0.02,-5.19,-40.57,3
-0.19,-0.96,-0.1,-15.32,-45.89,13.61
-0.17,-1.01,-0.04,-26.07,-39.9,8.23
-0.18,-0.92,-0.09,-17.37,-22.05,0.96
-0.25,-0.98,-0.01,-29.4,-34.13,13.1
-0.12,-1,0.01,-22.88,-34.77,9.56
-0.17,-0.95,0,-16.65,-14.77,-1.93
-0.11,-0.94,-0.02,-14.18,-23.41,-6.01
-0.22,-0.96,0.01,-11.39,-8.1,-10.57
-0.18,-0.96,-0.03,-6.78,-13.18,-7.76
-0.2,-0.93,0,-5.29,-8.77,-9.1
-0.16,-0.97,-0.02,-1.57,-5.02,-10.1
-0.25,-0.92,-0.03,3.31,-14.5,-2.46
-0.17,-0.92,-0.07,4.42,-20.14,6.06
-0.17,-0.96,-0.05,4.45,-7.57,-1.71
-0.15,-0.96,-0.04,3.83,-16.81,-2.68
-0.22,-0.95,0,6.03,-4.85,-3.81
-0.15,-1.02,0.02,8.74,-4.15,-2.44
-0.21,-1.04,0.06,9.92,7.7,-4.98
-0.17,-0.82,0.05,11.91,-6.08,1.27
-0.14,-0.91,0.09,8.59,-7.39,6.45
-0.09,-0.98,0.17,12.77,-23.54,0.19
-0.06,-0.88,0.03,21.58,-3.6,-11.74
-0.15,-1.11,0.16,-0.33,10.69,-16.86
-0.23,-1.09,0.23,19.58,2.97,-18.03
-0.24,-1.04,0.04,13.67,-13.44,8.59
-0.05,-1.06,0.08,-0.14,-19.31,7.17
-0.22,-1,0.08,-2.45,4.36,-11.03
-0.21,-0.96,0.07,-13.18,-16.21,8.5
-0.21,-1.28,0.16,-35.59,-18.58,15.35
-0.15,-0.9,0.2,2.4,-16.07,4.35
-0.11,-0.83,-0.07,-7.62,-10.69,8.21
-0.11,-0.99,0.09,-30.12,-5.57,2.19
-0.24,-0.99,0.12,-4.16,-7.33,1.14
-0.16,-0.95,0.03,-13.42,-18.86,9.88
-0.15,-0.95,0.03,-6.49,-9.03,1.9
-0.19,-0.97,0.02,-7.61,0.73,-1.71
-0.17,-0.97,-0.02,-8.06,-8.3,0.97
-0.18,-0.99,0,-10.85,-3.41,-1.16
-0.23,-0.97,0,-8.54,-4.15,1.61
-0.2,-0.95,0.01,-10.95,-9.93,5.89
-0.17,-0.96,0,-10.54,-8.62,7.71
-0.19,-0.95,0.04,-8.14,-4.85,3.71
-0.18,-0.94,0.03,-7.24,-10.66,6.3
-0.16,-0.96,0.02,-3.78,-9.6,3.83
-0.19,-0.98,0.03,-3.49,-5.69,1.68
-0.19,-0.96,0.01,-2.1,-9.09,1.77
-0.2,-0.96,-0.01,-3.07,-7.07,-0.03
-0.19,-0.97,-0.01,-4.16,-7.3,-0.28
-0.2,-0.96,-0.02,-4.94,-7.15,-2.52
-0.21,-0.96,0,-4.81,-6.89,-0.15
-0.19,-0.96,-0.01,-6.6,-10.16,-2.3
-0.22,-0.95,0.01,-3.33,-8.85,0.29
-0.21,-0.96,0,-3.1,-7.33,-1.48
-0.21,-0.95,0.01,-2.26,-7.44,-0.93
-0.21,-0.95,-0.01,-1.84,-6.91,-1.18
-0.23,-0.96,0.01,0.11,-6.48,-0.46
-0.21,-0.96,-0.03,0.83,-4.92,-1.72
-0.23,-0.96,-0.01,-2.01,-7.73,1.59
-0.19,-0.96,0,-0.03,-6.97,-0.54
-0.22,-0.96,0.02,-0.17,-5.4,0.54
-0.21,-0.96,-0.01,1.47,-6.23,0.23
-0.21,-0.97,0.01,-0.52,-8.07,1.41
-0.21,-0.97,-0.02,0.05,-4.14,-0.93
-0.22,-0.97,0,-1.47,-2.55,0.26
-0.19,-0.98,0.01,-1.83,-5.37,-0.89
-0.21,-0.97,-0.02,-2.73,-10.76,2.74
-0.19,-0.97,-0.02,-2.74,-1.95,-2.33
-0.21,-0.97,-0.03,-5.13,-3.69,1.05
-0.19,-0.97,-0.02,-6.26,-3.13,-2.87
-0.21,-0.96,0,-6.08,-3.03,-1
-0.2,-0.96,-0.01,-6.36,-6.27,-0.83
-0.21,-0.95,0.01,-4.81,-6.04,-0.41
-0.19,-0.95,0,-2.75,-7.24,0.13
-0.2,-0.96,0,-1.39,-4.08,-2.82
-0.2,-0.95,-0.03,-0.68,-6.97,-0.86
-0.19,-0.97,-0.03,-2.19,-8.83,-0.06
-0.23,-0.95,-0.04,0.14,-5.64,-0.84
-0.19,-0.97,-0.02,-3.51,-5.37,0.21
-0.22,-0.96,-0.03,-1.6,-3.53,-0.18
-0.18,-0.97,-0.01,-2.67,-5.56,1.47
-0.19,-0.95,-0.02,-0.63,-0.2,-1.42
-0.2,-0.96,-0.03,-2.8,-5.4,-0.97
-0.21,-0.97,-0.02,-1.54,-2.41,-1.05
-0.21,-0.96,-0.02,-2,-3.37,-0.3
-0.19,-0.97,-0.02,-3.1,-3.82,-0.48
-0.21,-0.96,-0.02,-3,-4.18,0.03
-0.19,-0.96,-0.05,-3.62,-6.95,0.03
-0.19,-0.96,-0.02,-2.88,-2.06,-1.24
-0.22,-0.96,-0.03,-2.57,-2.47,-0.1
-0.19,-0.96,-0.02,-1.67,-2.55,-0.55
-0.23,-0.96,-0.04,-2.48,-1.8,-0.4
-0.19,-0.95,-0.03,-3.2,-6.2,2.1
-0.2,-0.95,-0.03,-1.88,-1.74,1.24
-0.15,-0.97,-0.03,-1.31,-3.2,-0.9
-0.21,-0.97,-0.01,-0.42,0.53,-2.81
-0.16,-0.96,-0.06,0.23,-2.3,-3.14
-0.19,-0.96,-0.05,-0.12,1.19,-3.1
-0.19,-0.97,-0.05,-2.09,-3.79,-4.65
-0.19,-0.97,-0.04,-2.28,-7.59,-0.93
-0.14,-0.97,-0.07,-0.63,-0.59,-7.46
-0.19,-0.96,-0.04,-3.13,-0.83,-7.97
-0.25,-0.96,-0.03,-4.09,-1.15,-3.39
-0.2,-0.96,-0.02,0.45,-4.6,2.11
-0.17,-0.96,-0.01,-0.72,-7.04,3.36
-0.14,-0.97,-0.02,2.2,-6.5,0.96
-0.19,-0.96,-0.04,1.17,-4.5,-2.23
-0.17,-0.96,-0.06,2.43,-3.04,-2.83
-0.21,-0.97,-0.06,-1.3,0.63,-3.05
-0.22,-0.97,-0.02,-0.28,1.19,-0.1
-0.15,-0.98,-0.03,-1.81,-4.56,1.93
-0.17,-0.96,-0.04,-1.36,-7.18,0.28
-0.13,-0.97,-0.03,-0.81,-3.12,-4.12
-0.17,-0.96,-0.03,-0.33,-2.21,-4.88
-0.21,-0.97,-0.03,0.06,0.87,-4.51
-0.21,-0.97,-0.03,2.19,2.18,0.45
-0.18,-0.98,-0.03,1.22,-1.4,3.33
-0.17,-0.97,-0.05,-0.39,-4.37,5.19
-0.17,-0.97,-0.03,-0.15,-1.63,3.13
-0.16,-0.97,-0.02,-0.49,-1.04,4.19
-0.16,-0.97,-0.02,0.34,-2.59,2.61
-0.17,-0.97,-0.03,1.25,-2.33,2.53
-0.16,-0.97,-0.04,-1.78,-5.07,0.64
-0.18,-0.97,-0.03,-0.41,-1.65,-0.82
-0.18,-0.97,-0.03,-1.94,-4.23,0.52
-0.19,-0.97,-0.03,-1.95,-3.28,0.03
-0.18,-0.97,0,-0.2,-3.21,1.22
-0.17,-0.97,-0.03,-2.52,-3.89,-0.49
-0.19,-0.97,-0.03,0.11,-2.92,0.33
-0.19,-0.96,-0.02,-0.22,-1.45,-0.31
-0.16,-0.97,-0.04,-0.48,-5.13,-0.41
-0.19,-0.97,-0.03,-0.55,-3.12,-1.05
-0.17,-0.97,-0.02,-2.07,-5.77,-1.19
-0.19,-0.97,-0.02,-0.1,-2.7,-0.47
-0.18,-0.96,-0.03,-0.33,-3.12,-1.17
-0.2,-0.97,-0.02,-0.05,-2.31,-0.12
-0.18,-0.96,-0.03,1.02,-0.89,-1.3
-0.2,-0.96,-0.03,-2.39,-4.03,1.46
-0.18,-0.97,-0.02,-0.29,-4.45,0.47
-0.2,-0.97,-0.01,-1.2,-2.16,1.06
-0.19,-0.97,-0.01,0.47,-2.56,0.74
-0.17,-0.97,-0.03,-0.54,-4.31,0.21
-0.21,-0.97,-0.03,-0.62,-3.55,0.57
-0.18,-0.97,-0.02,-1.79,-4.13,-0.36
-0.18,-0.96,-0.03,-0.75,-3.93,-0.31
-0.18,-0.97,-0.01,-2.23,-3.31,-1.42
-0.17,-0.96,-0.01,-0.13,-2.52,-0.16
-0.19,-0.96,-0.02,-2.18,-4.35,-0.15
-0.19,-0.97,-0.01,-0.26,-4.03,1.19
-0.19,-0.97,-0.02,-0.5,-4.69,0.36
-0.19,-0.96,-0.02,0.36,-2.86,2.06
-0.16,-0.97,-0.03,-1.74,-3.76,0.04
-0.18,-0.97,-0.03,-0.54,-5.49,1.24
-0.18,-0.96,-0.02,-2.12,-4.08,-1.75
-0.19,-0.97,-0.01,-0.81,-2.71,-0.48
-0.18,-0.96,-0.01,-1.46,-5.01,-1.33
-0.21,-0.97,0,-0.21,-3.44,-0.52
-0.2,-0.96,-0.04,-0.94,-4.98,0.81
-0.2,-0.97,-0.01,-0.41,-2.85,0.52
-0.18,-0.96,-0.04,-1.5,-2.08,1.37
-0.19,-0.97,-0.01,-0.81,-4.34,1.36
-0.17,-0.96,-0.03,-1.85,-2.6,1.47
-0.2,-0.96,-0.02,-0.63,-4.34,0.06
-0.19,-0.97,-0.01,-0.68,-3.21,0.99
-0.19,-0.96,-0.02,-0.86,-3.09,0.26
-0.19,-0.96,-0.03,-1.13,-4.27,-0.51
-0.19,-0.97,-0.02,-1.75,-4.17,0.31
-0.18,-0.96,-0.03,-0.04,-2.24,-1.75
-0.17,-0.96,0,-3.17,-4.98,-1
-0.2,-0.95,-0.01,0.57,-2.49,-2.97
-0.17,-0.98,-0.02,0.06,-8.5,-0.5
-0.18,-0.98,-0.01,1.04,-10.69,0.98
-0.14,-0.96,-0.05,-1.2,-8.17,-1.54
-0.2,-0.97,-0.01,-2.1,-3.32,-4.25
-0.21,-0.97,-0.02,-2.45,-4.73,-2.67
-0.2,-0.97,0.01,-1.17,-7.82,0.14
-0.21,-0.97,0,-0.6,-4.41,1.06
-0.19,-0.97,0.01,0.08,-5.44,1.21
-0.19,-0.96,-0.05,0.29,-2.58,1.03
-0.18,-0.98,-0.01,-1.53,-6.07,2.22
-0.18,-0.96,-0.02,-1.2,-3.35,1.33
-0.17,-0.97,0.01,-2.24,-2.74,-0.58
-0.18,-0.96,-0.01,-0.71,-4.76,0.38
-0.19,-0.96,-0.01,-1.51,-4.29,-1.16
-0.19,-0.96,-0.03,-1.17,-1.02,-1.14
-0.2,-0.96,0,-1.38,-2.54,-0.97
-0.19,-0.96,-0.01,-1.9,-3.63,0.06
-0.18,-0.97,-0.02,-1.17,-3.66,-0.48
-0.21,-0.97,0.01,-0.18,-2.51,0.63
-0.18,-0.96,-0.03,-2.07,-6.56,-0.17
-0.2,-0.97,0.01,-0.54,-2.38,-0.32
-0.19,-0.96,-0.02,-1.09,-3.78,0.48
-0.19,-0.97,0,-0.13,-4.27,0.48
-0.19,-0.96,-0.02,-1,-1.96,-0.93
-0.2,-0.97,0,-0.14,-4.11,-0.2
-0.19,-0.97,-0.02,-1.84,-3.1,-1.77
-0.2,-0.96,-0.01,-0.54,-3.18,0.44
-0.19,-0.97,-0.02,-0.94,-3.61,-0.36
-0.18,-0.97,-0.02,-1.46,-2.15,-0.24
-0.19,-0.97,0.01,-0.46,-4.65,-0.26
-0.19,-0.97,-0.02,-2.4,-4.18,-0.26
-0.2,-0.97,0,-0.96,-3.31,-0.08
-0.18,-0.96,-0.01,-1.67,-2.28,0.15
-0.19,-0.97,0.01,-0.84,-5.69,0.78
-0.19,-0.96,-0.02,-1.52,-3.88,0.16
-0.19,-0.96,-0.02,-0.85,-1.77,-1.01
-0.19,-0.96,-0.01,-0.88,-3.49,-0.1
-0.19,-0.96,-0.01,-1.29,-3.04,-1.08
-0.2,-0.96,-0.01,-0.29,-2.61,-0.3
-0.18,-0.97,0,-1.54,-3.64,-0.44
-0.18,-0.97,0,0.32,-4.17,0.29
-0.2,-0.97,-0.02,-2.02,-5.61,-0.06
-0.19,-0.96,-0.02,-0.72,-4.29,0.43
-0.19,-0.97,0,-1.38,-2.82,-0.46
-0.19,-0.97,-0.01,-1.09,-3.25,0.16
-0.17,-0.97,-0.01,-2.01,-3.41,-1.61
-0.21,-0.97,0,-0.95,-4.77,0.51
-0.19,-0.97,-0.02,-1.07,-3.51,-1.89
-0.2,-0.97,0,-0.47,-3.14,1.19
-0.19,-0.97,-0.02,-0.62,-4.18,-0.29
-0.2,-0.97,0,-0.3,-3.1,0.84
-0.17,-0.98,-0.01,0.14,-3.05,-0.49
-0.2,-0.98,-0.01,-1.42,-2.29,0.76
-0.18,-0.97,-0.02,-1.62,-4.58,-1.03
-0.21,-0.97,0,-1.04,-3.44,1.03
-0.18,-0.96,-0.01,-1.45,-3.73,-0.55
-0.19,-0.96,-0.01,-1.9,-4.18,0.39
-0.2,-0.96,-0.02,-1.49,-4.21,-0.1
-0.2,-0.96,-0.01,-1.11,-3.34,0.68
-0.19,-0.97,0,-1.39,-5.23,0.06
-0.19,-0.96,-0.02,-0.68,-2.11,0.14
-0.19,-0.97,-0.01,-1.04,-4.4,-0.17
-0.19,-0.97,-0.03,0.57,-3.76,-0.06
-0.19,-0.96,-0.01,-2.55,-3.44,-0.16
-0.2,-0.97,-0.01,-1.13,-4.76,0.82
-0.19,-0.97,-0.01,-1.33,-4.66,0.94
-0.19,-0.96,-0.02,-0.94,-2.99,0.65
-0.18,-0.97,-0.01,-1.81,-3.6,-0.63
-0.21,-0.96,-0.01,-0.71,-4.66,1.17
-0.2,-0.96,0,-1.54,-2.69,0.3
-0.19,-0.96,-0.02,-0.7,-4.15,0.68
-0.2,-0.96,0,-0.87,-3.19,-0.84
-0.18,-0.96,0,-0.49,-4.27,-0.27
-0.21,-0.96,-0.03,-1.77,-4.74,-1.39
-0.21,-0.96,-0.01,-0.71,-3.2,0.17
-0.19,-0.97,0,-1.91,-3,-0.13
-0.19,-0.96,0,-0.4,-5.37,1.13
-0.2,-0.97,-0.01,-0.71,-3.13,-0.43
-0.19,-0.96,-0.02,-0.68,-5.52,1.19
-0.2,-0.96,-0.01,-0.78,-3.08,0
-0.2,-0.97,-0.01,-1.23,-3.82,0.62
-0.2,-0.96,0,-1.19,-2.82,-1.08
-0.2,-0.97,-0.01,-1.21,-5.11,1
-0.2,-0.96,-0.02,-0.1,-2.05,-1.29
-0.21,-0.96,-0.01,-2.44,-3.41,0.73
-0.2,-0.96,0,-1.01,-4.24,0.15
-0.19,-0.97,-0.01,-0.42,-2.6,0.19
-0.19,-0.96,0,-0.34,-4.42,-0.89
-0.2,-0.97,0,-0.36,-3.79,-0.26
-0.2,-0.96,-0.01,-1.52,-4.1,-1.03
-0.21,-0.97,-0.01,-0.92,-4.26,0.52
-0.2,-0.96,-0.01,-1.38,-5.29,-0.14
-0.21,-0.96,0.01,-0.4,-4.38,1.65
-0.19,-0.97,0,0.41,-1.49,-1.23
-0.19,-0.97,-0.01,-1.78,-6.46,0.98
-0.2,-0.97,0,-1.13,-5.1,-0.5
-0.21,-0.96,0,-1.59,-5.57,1.37
-0.18,-0.97,0,-1.47,-6.11,0.34
-0.17,-0.97,0.01,-2.13,-5.16,-0.71
-0.19,-0.96,0.03,-0.97,-7.95,-0.03
-0.17,-0.96,0.03,-0.01,-11.4,0.66
-0.16,-0.97,0.03,1.32,-17.75,1.53
-0.16,-0.97,0.01,2.45,-16.33,0.08
-0.19,-0.97,-0.03,-0.2,-23.51,-1.06
-0.24,-0.97,-0.09,-3.62,-30.37,0.35
-0.25,-0.97,-0.05,-8.68,-35.26,2.11
-0.24,-0.9,-0.07,0.31,-33.03,6.79
-0.22,-0.86,-0.07,-3.39,-19.05,0.29
-0.23,-0.88,0,0.82,-18.66,-2.62
-0.3,-0.93,0,3.85,-23.76,1.35
-0.36,-0.94,-0.1,12.35,-33.72,15.26
-0.32,-0.91,-0.21,-1.42,-35.05,22.16
-0.33,-1.03,-0.15,-10.87,-31.69,19.69
-0.31,-1,0.01,-7.36,-9.56,9.46
-0.3,-0.96,0.09,-13,-3.95,17.7
-0.2,-1.05,0.29,-16.21,-39.66,12.19
-0.24,-0.89,0.29,10.41,-18.73,4.54
-0.17,-0.91,0.16,1.81,-37.62,8.94
-0.26,-0.86,0.22,11.41,-30.48,-11.11
-0.33,-0.85,0.08,-2.7,-55.05,0.96
-0.31,-0.94,0.17,-5.8,-40.88,-10.9
-0.46,-0.91,0.14,-10.2,-46.34,-10.55
-0.47,-0.87,0.12,-15.51,-56.78,0.1
-0.43,-0.88,0.1,-22.07,-63.56,8.83
-0.39,-0.96,0.12,-33.42,-77.53,9.07
-0.38,-1.06,0.18,-35.66,-73.92,10.51
-0.32,-1.17,0.17,-48.26,-99.88,17.18
-0.18,-1.1,0.25,-40.68,-101.79,8.15
-0.32,-0.52,0.05,-15.46,-62.12,7.71
-0.09,-0.93,0.12,-53.36,-110.53,40.9
-0.09,-1.05,0.29,-29.77,-58.1,-11.87
-0.3,-0.79,0.17,-12.79,-39.47,-22.25
-0.36,-0.76,0.07,-10.71,-46.4,-15.11
-0.37,-0.91,0.17,-13.46,-29.85,-19.34
-0.5,-0.9,0.08,-6.15,-28.94,-12.35
-0.48,-0.97,0.05,-2.53,-33.7,11.24
-0.29,-1.2,0.07,-7.46,-23.45,17.74
-0.27,-1.02,0.09,-1.41,-5.02,-13.8
-0.23,-0.82,0.17,-16.68,-37.94,11.61
-0.01,-1.11,0.23,-18.78,-20.43,0.03
-0.23,-0.95,0.29,6.39,-2.41,-18.91
-0.3,-0.79,0.05,14.58,-25.47,9.19
-0.18,-0.83,0.05,-11.44,-40.7,13.97
-0.28,-0.89,0.13,-9.52,-15.92,-4.11
-0.39,-1.03,0.16,-15.44,-5.11,11.9
-0.25,-1.03,0.18,-12,-51.8,18.72
-0.21,-1.24,0.24,-20.62,-49.34,13.88
-0.25,-0.75,0.15,1.99,-62.51,8.11
-0.26,-1.04,-0.04,-22.5,-87.63,43.58
-0.09,-0.95,0.05,-29.39,-96.68,22.83
-0.25,-0.77,-0.04,-33.05,-88.82,15.09
-0.24,-0.9,0.07,-40.66,-67.51,13.34
-0.4,-0.93,0.07,-28.66,-51.92,1.63
-0.4,-0.9,0.1,-30.27,-57.28,3.61
-0.39,-0.97,0.14,-24.14,-43.36,-0.66
-0.34,-1.07,0.21,-23.2,-34.86,-4.34
-0.35,-0.88,0.2,-4.97,-7.05,-13.03
-0.27,-0.87,0.19,-16.36,-10.05,-1.66
-0.17,-1.04,0.24,-5.63,38.5,-26.13
-0.4,-0.9,0.17,-1,31.25,-32.68
-0.44,-0.77,0.1,2.09,-0.76,7.13
-0.23,-0.79,0.14,-6.01,-20.56,25.55
-0.24,-0.79,0.09,-4.76,-11.65,16.48
-0.24,-1.05,0.09,-23.16,-17.39,17.13
-0.23,-1.23,0.26,-25.49,-41.39,5.62
-0.32,-1.18,0.17,-15.38,-38.71,-3.36
-0.25,-0.7,0.18,7.08,-40.71,3.13
-0.25,-1.04,-0.01,-3.35,-43.89,18.55
-0.23,-1.06,0.16,-4.52,-45.6,2.01
-0.28,-0.67,-0.08,16.84,-35.22,-5.77
-0.3,-0.69,-0.11,-25.94,-31.65,8.64
-0.33,-0.96,0.12,-20.93,-23.07,-0.55
-0.48,-0.93,0.09,-5.97,-25.85,-1.51
-0.4,-1.04,0.06,-9.88,-33.01,12.63
-0.34,-1.22,0.15,-14.45,-24.67,3.14
-0.44,-0.94,0.14,-0.94,-16.78,-7.23
-0.3,-0.85,0.1,-10.62,-35.98,27.11
0,-1.05,0.13,-12.48,-6.29,-1.23
-0.32,-0.92,0.23,-2.49,29.18,-28.75
-0.37,-0.77,0.05,5.28,-20.01,11.21
-0.13,-0.81,0.07,-11.19,-33.21,20.95
-0.24,-0.78,0.1,-12.31,-26.47,-0.76
-0.29,-0.95,0.07,-27.16,-28.76,-1.91
-0.29,-1.05,0.26,-32.75,-53.48,-6.03
-0.36,-1.31,0.16,-32.09,-70.12,1.19
-0.18,-0.89,0.27,-8.88,-68.31,-12.7
-0.32,-0.68,-0.01,-1.72,-69.66,6.82
-0.16,-1.16,0.1,-40.2,-68.31,11.93
-0.25,-0.85,0.15,-2.25,-73.22,-17.68
-0.34,-0.72,-0.06,-7.38,-37.43,-1.81
-0.36,-0.9,0.07,-26.77,-36.94,4.29
-0.41,-0.91,0.1,-11.23,-49.69,-2.39
-0.47,-0.91,0.06,-13.59,-43.02,5.26
-0.38,-1.15,0.09,-15.66,-35.17,10.94
-0.35,-1.18,0.13,-9.17,-13.66,-5.55
-0.43,-0.8,0.17,-7.76,-29.37,2.94
-0.16,-0.9,0.15,-4.65,-21.61,34.13
-0.06,-1.06,0.18,-10.44,15.95,0.97
-0.29,-0.9,0.18,11.34,2.44,-4.16
-0.23,-0.79,0.04,1.83,-27.01,14.4
-0.16,-0.81,0.05,-7.14,-24.73,7.39
-0.3,-0.84,0.06,-8.65,-14.58,1.87
-0.36,-1.07,0.1,-28,-40.77,8.36
-0.28,-1.19,0.14,-32.78,-56.26,7.42
-0.2,-1.28,0.29,-36.35,-64.63,0.21
-0.24,-0.61,0.13,10.53,-53.68,-11.53
-0.1,-1.07,0.04,-41.25,-87.4,35.48
-0.05,-1.06,0.28,-31.85,-48.77,-26.63
-0.43,-0.71,0.07,4.51,-55.3,-36.42
-0.33,-0.7,-0.02,-23.26,-53.77,4.67
-0.41,-0.92,0.13,-16.36,-47.06,-6.38
-0.56,-1,0.08,-8.21,-41.55,9.03
-0.42,-1.09,0.12,-9.73,-44.66,17.06
-0.33,-1.2,0.12,-16.78,-28.6,10.75
-0.4,-0.89,0.23,-2.38,-18.98,10.89
-0.14,-0.9,0.08,-7.18,-42.27,38.08
0.06,-1.03,0.1,-20.69,8.57,0.55
-0.28,-0.9,0.23,0.15,30.92,-11.07
-0.19,-0.77,0.08,-13.13,-58.53,9.97
-0.14,-0.84,0.13,-18.08,-15.02,0.68
-0.29,-0.81,0.11,-12.78,-26.22,-9.46
-0.36,-1.01,0.15,-26,-36.25,3.56
-0.35,-1.04,0.24,-21.25,-50.74,1.09
-0.34,-1.29,0.18,-27.33,-55.2,8.52
-0.31,-0.8,0.26,1.36,-50.53,-11.84
-0.31,-0.7,-0.03,-5.96,-69.71,26.32
-0.16,-1.2,0.17,-37.12,-51.06,19.08
-0.31,-0.81,0.14,8.6,-39.83,-18.81
-0.38,-0.66,-0.12,-11.39,-31.47,20.61
-0.21,-0.91,0.04,-23.49,-43.4,16.39
-0.4,-0.91,0.05,5.08,12.23,-15.14
-0.56,-0.95,-0.03,-7.69,-0.89,3.87
-0.41,-1.24,0.07,-19.75,-31.89,23.01
-0.31,-1.16,0.2,-13.03,-6.53,-2.84
